Temperature (K)	Pressure (bar)	Density (l, kg/m3)	Volume (l, m3/kg)	Internal Energy (l, kJ/mol)	Enthalpy (l, kJ/mol)	Entropy (l, J/mol*K)	Cv (l, J/mol*K)	Cp (l, J/mol*K)	Sound Spd. (l, m/s)	Joule-Thomson (l, K/bar)	Viscosity (l, uPa*s)	Therm. Cond. (l, W/m*K)	Surf. Tension (l, N/m)	Density (v, kg/m3)	Volume (v, m3/kg)	Internal Energy (v, kJ/mol)	Enthalpy (v, kJ/mol)	Entropy (v, J/mol*K)	Cv (v, J/mol*K)	Cp (v, J/mol*K)	Sound Spd. (v, m/s)	Joule-Thomson (v, K/bar)	Viscosity (v, uPa*s)	Therm. Cond. (v, W/m*K)
250.00	0.015229	697.23	0.0014343	-17.983	-17.983	-60.956	138.32	180.84	1301.5	-0.047256	510.14	0.13614	0.023027	0.063272	15.805	14.234	16.308	76.208	116.89	125.30	160.45	8.2140	5.2533	0.010233
251.00	0.016265	696.37	0.0014360	-17.802	-17.802	-60.234	138.55	181.10	1296.7	-0.047120	503.60	0.13578	0.022918	0.067316	14.855	14.350	16.432	76.158	117.23	125.64	160.74	8.1241	5.2745	0.010299
252.00	0.017361	695.51	0.0014378	-17.621	-17.621	-59.513	138.77	181.37	1292.0	-0.046982	497.20	0.13541	0.022809	0.071574	13.971	14.467	16.557	76.113	117.57	125.98	161.03	8.0350	5.2957	0.010366
253.00	0.018519	694.64	0.0014396	-17.440	-17.439	-58.795	139.00	181.63	1287.2	-0.046843	490.92	0.13505	0.022700	0.076057	13.148	14.584	16.682	76.073	117.91	126.33	161.31	7.9468	5.3168	0.010433
254.00	0.019743	693.78	0.0014414	-17.258	-17.258	-58.078	139.23	181.90	1282.5	-0.046704	484.77	0.13469	0.022591	0.080774	12.380	14.701	16.807	76.036	118.25	126.68	161.60	7.8594	5.3380	0.010500
255.00	0.021035	692.92	0.0014432	-17.076	-17.076	-57.362	139.46	182.17	1277.7	-0.046562	478.73	0.13432	0.022483	0.085733	11.664	14.819	16.933	76.004	118.60	127.03	161.88	7.7730	5.3591	0.010568
256.00	0.022398	692.05	0.0014450	-16.894	-16.893	-56.649	139.69	182.44	1273.0	-0.046420	472.81	0.13396	0.022374	0.090946	10.996	14.936	17.059	75.976	118.94	127.38	162.16	7.6874	5.3802	0.010636
257.00	0.023835	691.19	0.0014468	-16.711	-16.711	-55.937	139.93	182.71	1268.2	-0.046277	467.00	0.13361	0.022266	0.096420	10.371	15.055	17.185	75.952	119.29	127.74	162.45	7.6027	5.4013	0.010704
258.00	0.025351	690.32	0.0014486	-16.528	-16.528	-55.227	140.17	182.99	1263.5	-0.046132	461.30	0.13325	0.022157	0.10217	9.7878	15.173	17.311	75.933	119.64	128.09	162.73	7.5189	5.4224	0.010773
259.00	0.026947	689.46	0.0014504	-16.345	-16.345	-54.519	140.41	183.27	1258.8	-0.045986	455.71	0.13289	0.022049	0.10820	9.2422	15.292	17.438	75.917	119.99	128.45	163.00	7.4360	5.4435	0.010842
260.00	0.028628	688.59	0.0014522	-16.162	-16.161	-53.812	140.65	183.55	1254.0	-0.045839	450.23	0.13254	0.021941	0.11452	8.7317	15.411	17.565	75.905	120.35	128.81	163.28	7.3539	5.4645	0.010911
261.00	0.030397	687.72	0.0014541	-15.978	-15.978	-53.107	140.90	183.83	1249.3	-0.045691	444.84	0.13219	0.021833	0.12116	8.2539	15.530	17.692	75.897	120.70	129.18	163.55	7.2728	5.4855	0.010981
262.00	0.032257	686.85	0.0014559	-15.794	-15.794	-52.403	141.15	184.12	1244.6	-0.045542	439.55	0.13183	0.021724	0.12810	7.8062	15.650	17.820	75.893	121.06	129.54	163.83	7.1925	5.5065	0.011051
263.00	0.034213	685.98	0.0014578	-15.610	-15.609	-51.701	141.40	184.41	1239.9	-0.045391	434.36	0.13148	0.021616	0.13538	7.3867	15.770	17.948	75.893	121.42	129.91	164.10	7.1130	5.5275	0.011121
264.00	0.036268	685.11	0.0014596	-15.425	-15.425	-51.001	141.65	184.70	1235.2	-0.045239	429.27	0.13113	0.021509	0.14299	6.9933	15.890	18.076	75.896	121.78	130.28	164.37	7.0345	5.5485	0.011192
265.00	0.038426	684.24	0.0014615	-15.240	-15.240	-50.302	141.90	184.99	1230.5	-0.045086	424.26	0.13079	0.021401	0.15096	6.6242	16.011	18.205	75.904	122.14	130.65	164.64	6.9568	5.5694	0.011263
266.00	0.040692	683.37	0.0014633	-15.055	-15.055	-49.605	142.16	185.28	1225.8	-0.044932	419.34	0.13044	0.021293	0.15929	6.2778	16.132	18.333	75.915	122.50	131.02	164.90	6.8800	5.5903	0.011334
267.00	0.043069	682.49	0.0014652	-14.870	-14.869	-48.909	142.41	185.58	1221.1	-0.044777	414.51	0.13010	0.021185	0.16800	5.9523	16.253	18.463	75.929	122.87	131.39	165.17	6.8040	5.6112	0.011405
268.00	0.045562	681.62	0.0014671	-14.684	-14.684	-48.215	142.67	185.88	1216.4	-0.044621	409.76	0.12975	0.021078	0.17710	5.6465	16.375	18.592	75.947	123.24	131.77	165.43	6.7289	5.6321	0.011477
269.00	0.048175	680.74	0.0014690	-14.498	-14.497	-47.522	142.94	186.18	1211.7	-0.044463	405.10	0.12941	0.020971	0.18660	5.3590	16.497	18.722	75.969	123.60	132.15	165.69	6.6547	5.6530	0.011549
270.00	0.050913	679.87	0.0014709	-14.312	-14.311	-46.831	143.20	186.49	1207.0	-0.044304	400.52	0.12907	0.020863	0.19652	5.0885	16.619	18.851	75.994	123.97	132.53	165.95	6.5813	5.6738	0.011622
271.00	0.053781	678.99	0.0014728	-14.125	-14.124	-46.141	143.47	186.79	1202.4	-0.044145	396.01	0.12873	0.020756	0.20687	4.8339	16.741	18.982	76.022	124.35	132.91	166.21	6.5088	5.6946	0.011694
272.00	0.056782	678.11	0.0014747	-13.938	-13.937	-45.452	143.73	187.10	1197.7	-0.043983	391.58	0.12839	0.020649	0.21767	4.5941	16.864	19.112	76.054	124.72	133.29	166.47	6.4371	5.7154	0.011767
273.00	0.059922	677.24	0.0014766	-13.751	-13.750	-44.765	144.00	187.41	1193.0	-0.043821	387.23	0.12805	0.020542	0.22892	4.3683	16.987	19.243	76.089	125.09	133.68	166.72	6.3662	5.7362	0.011841
274.00	0.063207	676.36	0.0014785	-13.563	-13.563	-44.079	144.27	187.72	1188.4	-0.043658	382.94	0.12772	0.020435	0.24065	4.1554	17.111	19.374	76.128	125.47	134.07	166.98	6.2962	5.7569	0.011914
275.00	0.066640	675.47	0.0014804	-13.376	-13.375	-43.395	144.55	188.04	1183.7	-0.043493	378.73	0.12738	0.020328	0.25287	3.9546	17.234	19.505	76.169	125.85	134.46	167.23	6.2270	5.7777	0.011988
276.00	0.070228	674.59	0.0014824	-13.187	-13.186	-42.712	144.82	188.35	1179.1	-0.043327	374.59	0.12705	0.020221	0.26559	3.7652	17.358	19.637	76.214	126.22	134.85	167.48	6.1587	5.7984	0.012062
277.00	0.073976	673.71	0.0014843	-12.999	-12.998	-42.030	145.10	188.67	1174.4	-0.043160	370.51	0.12671	0.020114	0.27883	3.5864	17.483	19.769	76.262	126.60	135.24	167.72	6.0912	5.8190	0.012137
278.00	0.077888	672.83	0.0014863	-12.810	-12.809	-41.350	145.38	188.99	1169.8	-0.042992	366.51	0.12638	0.020008	0.29261	3.4175	17.607	19.901	76.313	126.99	135.64	167.97	6.0245	5.8397	0.012212
279.00	0.081972	671.94	0.0014882	-12.621	-12.620	-40.671	145.66	189.31	1165.1	-0.042823	362.56	0.12605	0.019901	0.30694	3.2580	17.732	20.034	76.368	127.37	136.03	168.21	5.9586	5.8603	0.012287
280.00	0.086231	671.05	0.0014902	-12.431	-12.430	-39.993	145.94	189.64	1160.5	-0.042652	358.68	0.12573	0.019795	0.32184	3.1072	17.858	20.167	76.425	127.75	136.43	168.45	5.8935	5.8809	0.012362
281.00	0.090673	670.17	0.0014922	-12.242	-12.241	-39.316	146.22	189.97	1155.9	-0.042480	354.86	0.12540	0.019689	0.33732	2.9646	17.983	20.300	76.485	128.14	136.83	168.69	5.8292	5.9015	0.012438
282.00	0.095304	669.28	0.0014941	-12.052	-12.050	-38.641	146.51	190.29	1151.3	-0.042307	351.10	0.12507	0.019583	0.35340	2.8296	18.109	20.433	76.548	128.53	137.23	168.93	5.7657	5.9221	0.012514
283.00	0.10013	668.39	0.0014961	-11.861	-11.860	-37.967	146.79	190.62	1146.6	-0.042133	347.40	0.12475	0.019476	0.37011	2.7019	18.235	20.567	76.615	128.92	137.64	169.16	5.7030	5.9426	0.012590
284.00	0.10515	667.50	0.0014981	-11.670	-11.669	-37.294	147.08	190.96	1142.0	-0.041958	343.76	0.12442	0.019370	0.38744	2.5810	18.362	20.701	76.684	129.31	138.04	169.40	5.6411	5.9631	0.012667
285.00	0.11039	666.61	0.0015001	-11.479	-11.478	-36.622	147.37	191.29	1137.4	-0.041781	340.17	0.12410	0.019264	0.40544	2.4665	18.489	20.835	76.755	129.70	138.45	169.63	5.5800	5.9836	0.012743
286.00	0.11583	665.71	0.0015021	-11.288	-11.286	-35.952	147.66	191.63	1132.8	-0.041603	336.64	0.12378	0.019159	0.42411	2.3579	18.616	20.969	76.830	130.09	138.86	169.86	5.5196	6.0040	0.012820
287.00	0.12150	664.82	0.0015042	-11.096	-11.095	-35.282	147.95	191.96	1128.2	-0.041424	333.16	0.12346	0.019053	0.44346	2.2550	18.743	21.104	76.908	130.48	139.27	170.08	5.4600	6.0245	0.012898
288.00	0.12739	663.92	0.0015062	-10.904	-10.902	-34.614	148.25	192.30	1123.6	-0.041244	329.74	0.12314	0.018947	0.46353	2.1573	18.871	21.239	76.988	130.88	139.68	170.31	5.4012	6.0449	0.012975
289.00	0.13351	663.03	0.0015082	-10.712	-10.710	-33.947	148.54	192.65	1119.0	-0.041062	326.36	0.12282	0.018842	0.48433	2.0647	18.999	21.374	77.071	131.28	140.10	170.53	5.3431	6.0653	0.013053
290.00	0.13988	662.13	0.0015103	-10.519	-10.517	-33.281	148.84	192.99	1114.5	-0.040880	323.04	0.12251	0.018736	0.50588	1.9768	19.127	21.510	77.156	131.67	140.52	170.75	5.2858	6.0857	0.013131
291.00	0.14649	661.23	0.0015123	-10.326	-10.324	-32.616	149.14	193.34	1109.9	-0.040695	319.76	0.12219	0.018631	0.52819	1.8933	19.256	21.646	77.244	132.07	140.93	170.97	5.2292	6.1060	0.013210
292.00	0.15336	660.33	0.0015144	-10.132	-10.130	-31.953	149.44	193.68	1105.3	-0.040510	316.54	0.12188	0.018526	0.55129	1.8139	19.385	21.782	77.335	132.47	141.35	171.18	5.1734	6.1263	0.013288
293.00	0.16049	659.43	0.0015165	-9.9384	-9.9363	-31.290	149.74	194.03	1100.7	-0.040323	313.36	0.12157	0.018421	0.57520	1.7385	19.514	21.918	77.428	132.88	141.78	171.40	5.1183	6.1466	0.013367
294.00	0.16789	658.53	0.0015185	-9.7442	-9.7420	-30.628	150.05	194.38	1096.2	-0.040135	310.23	0.12126	0.018316	0.59994	1.6668	19.643	22.055	77.524	133.28	142.20	171.61	5.0639	6.1669	0.013447
295.00	0.17556	657.62	0.0015206	-9.5497	-9.5474	-29.968	150.35	194.73	1091.6	-0.039946	307.14	0.12095	0.018211	0.62553	1.5986	19.773	22.192	77.622	133.68	142.63	171.82	5.0102	6.1871	0.013526
296.00	0.18352	656.72	0.0015227	-9.3548	-9.3524	-29.309	150.66	195.09	1087.1	-0.039756	304.09	0.12064	0.018106	0.65199	1.5338	19.903	22.329	77.723	134.09	143.05	172.02	4.9572	6.2073	0.013606
297.00	0.19178	655.81	0.0015248	-9.1596	-9.1571	-28.650	150.96	195.44	1082.5	-0.039564	301.09	0.12033	0.018001	0.67935	1.4720	20.034	22.466	77.826	134.49	143.48	172.23	4.9050	6.2275	0.013686
298.00	0.20033	654.90	0.0015270	-8.9640	-8.9614	-27.993	151.27	195.80	1078.0	-0.039371	298.14	0.12002	0.017897	0.70762	1.4132	20.164	22.604	77.931	134.90	143.91	172.43	4.8534	6.2477	0.013766
299.00	0.20919	653.99	0.0015291	-8.7681	-8.7653	-27.336	151.58	196.16	1073.4	-0.039176	295.22	0.11972	0.017792	0.73682	1.3572	20.295	22.742	78.039	135.31	144.34	172.63	4.8025	6.2678	0.013847
300.00	0.21837	653.08	0.0015312	-8.5718	-8.5689	-26.681	151.89	196.52	1068.9	-0.038980	292.35	0.11941	0.017688	0.76698	1.3038	20.427	22.880	78.149	135.72	144.78	172.82	4.7523	6.2880	0.013927
301.00	0.22788	652.17	0.0015334	-8.3752	-8.3721	-26.026	152.21	196.88	1064.3	-0.038783	289.51	0.11911	0.017584	0.79813	1.2529	20.558	23.019	78.262	136.13	145.21	173.02	4.7028	6.3081	0.014009
302.00	0.23772	651.25	0.0015355	-8.1781	-8.1750	-25.373	152.52	197.25	1059.8	-0.038584	286.71	0.11881	0.017479	0.83027	1.2044	20.690	23.157	78.377	136.54	145.65	173.21	4.6539	6.3281	0.014090
303.00	0.24790	650.34	0.0015377	-7.9808	-7.9775	-24.721	152.83	197.61	1055.3	-0.038384	283.96	0.11851	0.017375	0.86345	1.1581	20.822	23.296	78.494	136.96	146.09	173.40	4.6057	6.3482	0.014171
304.00	0.25843	649.42	0.0015398	-7.7830	-7.7796	-24.069	153.15	197.98	1050.8	-0.038183	281.24	0.11821	0.017271	0.89768	1.1140	20.955	23.436	78.613	137.37	146.53	173.58	4.5582	6.3682	0.014253
305.00	0.26932	648.50	0.0015420	-7.5849	-7.5814	-23.418	153.47	198.35	1046.3	-0.037980	278.55	0.11791	0.017168	0.93298	1.0718	21.088	23.575	78.734	137.79	146.97	173.76	4.5113	6.3882	0.014335
306.00	0.28059	647.58	0.0015442	-7.3865	-7.3827	-22.769	153.78	198.72	1041.7	-0.037775	275.90	0.11761	0.017064	0.96938	1.0316	21.221	23.715	78.858	138.20	147.42	173.95	4.4651	6.4082	0.014418
307.00	0.29223	646.66	0.0015464	-7.1876	-7.1838	-22.120	154.10	199.09	1037.2	-0.037569	273.29	0.11731	0.016960	1.0069	0.99314	21.354	23.855	78.983	138.62	147.86	174.12	4.4194	6.4282	0.014500
308.00	0.30425	645.73	0.0015486	-6.9884	-6.9844	-21.472	154.42	199.47	1032.7	-0.037362	270.72	0.11702	0.016857	1.0456	0.95640	21.488	23.995	79.111	139.04	148.31	174.30	4.3744	6.4482	0.014583
309.00	0.31668	644.81	0.0015508	-6.7889	-6.7846	-20.825	154.75	199.84	1028.2	-0.037153	268.17	0.11672	0.016753	1.0854	0.92129	21.621	24.136	79.240	139.46	148.76	174.47	4.3301	6.4681	0.014666
310.00	0.32951	643.88	0.0015531	-6.5889	-6.5845	-20.179	155.07	200.22	1023.7	-0.036943	265.66	0.11643	0.016650	1.1265	0.88772	21.756	24.276	79.372	139.88	149.21	174.64	4.2863	6.4880	0.014749
311.00	0.34275	642.95	0.0015553	-6.3886	-6.3840	-19.534	155.39	200.60	1019.3	-0.036731	263.19	0.11614	0.016547	1.1688	0.85561	21.890	24.417	79.506	140.30	149.66	174.81	4.2432	6.5079	0.014833
312.00	0.35642	642.02	0.0015576	-6.1879	-6.1831	-18.890	155.72	200.98	1014.8	-0.036518	260.74	0.11585	0.016444	1.2123	0.82489	22.025	24.559	79.642	140.72	150.12	174.97	4.2006	6.5278	0.014916
313.00	0.37053	641.09	0.0015598	-5.9868	-5.9818	-18.246	156.04	201.36	1010.3	-0.036303	258.33	0.11556	0.016341	1.2571	0.79550	22.160	24.700	79.779	141.14	150.57	175.13	4.1586	6.5476	0.015000
314.00	0.38508	640.16	0.0015621	-5.7854	-5.7802	-17.604	156.37	201.74	1005.8	-0.036086	255.95	0.11527	0.016238	1.3032	0.76735	22.295	24.842	79.919	141.57	151.03	175.29	4.1173	6.5675	0.015085
315.00	0.40009	639.22	0.0015644	-5.5835	-5.5781	-16.962	156.69	202.13	1001.3	-0.035868	253.59	0.11498	0.016135	1.3506	0.74040	22.431	24.984	80.060	141.99	151.49	175.45	4.0765	6.5873	0.015169
316.00	0.41556	638.29	0.0015667	-5.3813	-5.3757	-16.321	157.02	202.51	996.88	-0.035648	251.27	0.11470	0.016032	1.3994	0.71458	22.567	25.126	80.204	142.42	151.95	175.60	4.0363	6.6071	0.015254
317.00	0.43151	637.35	0.0015690	-5.1787	-5.1729	-15.681	157.35	202.90	992.41	-0.035426	248.98	0.11441	0.015930	1.4496	0.68985	22.703	25.268	80.349	142.84	152.41	175.75	3.9966	6.6269	0.015339
318.00	0.44795	636.41	0.0015713	-4.9757	-4.9697	-15.041	157.68	203.29	987.95	-0.035203	246.72	0.11413	0.015827	1.5012	0.66614	22.840	25.411	80.496	143.27	152.87	175.90	3.9575	6.6467	0.015424
319.00	0.46488	635.47	0.0015737	-4.7724	-4.7661	-14.403	158.01	203.68	983.50	-0.034978	244.48	0.11384	0.015725	1.5542	0.64340	22.976	25.554	80.644	143.70	153.34	176.04	3.9190	6.6665	0.015509
320.00	0.48232	634.52	0.0015760	-4.5686	-4.5621	-13.765	158.34	204.07	979.05	-0.034751	242.27	0.11356	0.015623	1.6087	0.62160	23.113	25.697	80.795	144.13	153.81	176.18	3.8810	6.6863	0.015595
321.00	0.50028	633.58	0.0015783	-4.3645	-4.3577	-13.128	158.68	204.47	974.60	-0.034523	240.09	0.11328	0.015521	1.6648	0.60069	23.251	25.840	80.947	144.56	154.28	176.32	3.8435	6.7060	0.015681
322.00	0.51877	632.63	0.0015807	-4.1599	-4.1529	-12.492	159.01	204.86	970.15	-0.034293	237.94	0.11300	0.015419	1.7223	0.58062	23.388	25.984	81.101	144.99	154.75	176.45	3.8066	6.7258	0.015767
323.00	0.53779	631.68	0.0015831	-3.9550	-3.9477	-11.856	159.34	205.26	965.71	-0.034061	235.81	0.11272	0.015317	1.7814	0.56136	23.526	26.128	81.257	145.42	155.22	176.59	3.7702	6.7455	0.015853
324.00	0.55737	630.73	0.0015855	-3.7497	-3.7421	-11.222	159.68	205.65	961.28	-0.033827	233.70	0.11244	0.015215	1.8421	0.54287	23.664	26.272	81.414	145.86	155.69	176.71	3.7343	6.7652	0.015940
325.00	0.57752	629.77	0.0015879	-3.5440	-3.5361	-10.588	160.02	206.05	956.84	-0.033591	231.63	0.11217	0.015113	1.9044	0.52510	23.803	26.416	81.573	146.29	156.17	176.84	3.6990	6.7850	0.016027
326.00	0.59823	628.82	0.0015903	-3.3379	-3.3297	-9.9546	160.35	206.45	952.42	-0.033353	229.57	0.11189	0.015012	1.9683	0.50804	23.942	26.561	81.734	146.72	156.64	176.96	3.6641	6.8047	0.016114
327.00	0.61954	627.86	0.0015927	-3.1314	-3.1229	-9.3221	160.69	206.86	947.99	-0.033113	227.55	0.11162	0.014911	2.0340	0.49165	24.080	26.705	81.896	147.16	157.12	177.08	3.6298	6.8244	0.016201
328.00	0.64144	626.90	0.0015952	-2.9245	-2.9157	-8.6903	161.03	207.26	943.57	-0.032872	225.54	0.11135	0.014809	2.1013	0.47589	24.220	26.850	82.059	147.59	157.60	177.20	3.5959	6.8442	0.016289
329.00	0.66395	625.94	0.0015976	-2.7172	-2.7081	-8.0592	161.37	207.66	939.15	-0.032628	223.56	0.11108	0.014708	2.1704	0.46074	24.359	26.995	82.225	148.03	158.08	177.31	3.5626	6.8639	0.016376
330.00	0.68708	624.97	0.0016001	-2.5095	-2.5000	-7.4289	161.71	208.07	934.74	-0.032382	221.60	0.11081	0.014607	2.2413	0.44617	24.499	27.141	82.392	148.47	158.57	177.42	3.5297	6.8837	0.016464
331.00	0.71084	624.01	0.0016025	-2.3014	-2.2916	-6.7992	162.05	208.48	930.33	-0.032135	219.67	0.11054	0.014506	2.3140	0.43216	24.639	27.286	82.560	148.90	159.05	177.52	3.4973	6.9034	0.016553
332.00	0.73525	623.04	0.0016050	-2.0929	-2.0828	-6.1702	162.39	208.89	925.92	-0.031885	217.76	0.11027	0.014405	2.3885	0.41867	24.779	27.432	82.730	149.34	159.54	177.62	3.4654	6.9232	0.016641
333.00	0.76032	622.07	0.0016075	-1.8840	-1.8735	-5.5419	162.73	209.30	921.52	-0.031633	215.87	0.11000	0.014305	2.4649	0.40570	24.920	27.578	82.901	149.78	160.03	177.72	3.4339	6.9430	0.016730
334.00	0.78605	621.10	0.0016101	-1.6747	-1.6638	-4.9143	163.07	209.71	917.12	-0.031378	214.00	0.10974	0.014204	2.5432	0.39320	25.061	27.724	83.074	150.22	160.52	177.82	3.4029	6.9628	0.016818
335.00	0.81247	620.12	0.0016126	-1.4650	-1.4537	-4.2873	163.41	210.12	912.72	-0.031122	212.15	0.10947	0.014104	2.6235	0.38118	25.202	27.871	83.248	150.66	161.01	177.91	3.3724	6.9826	0.016908
336.00	0.83958	619.14	0.0016151	-1.2549	-1.2432	-3.6610	163.76	210.54	908.32	-0.030863	210.32	0.10921	0.014003	2.7057	0.36959	25.343	28.017	83.423	151.10	161.50	178.00	3.3423	7.0024	0.016997
337.00	0.86740	618.16	0.0016177	-1.0444	-1.0323	-3.0353	164.10	210.95	903.93	-0.030602	208.52	0.10894	0.013903	2.7899	0.35843	25.485	28.164	83.600	151.54	162.00	178.08	3.3126	7.0223	0.017087
338.00	0.89593	617.18	0.0016203	-0.83347	-0.82096	-2.4102	164.44	211.37	899.55	-0.030339	206.73	0.10868	0.013803	2.8762	0.34768	25.626	28.311	83.779	151.99	162.49	178.16	3.2834	7.0422	0.017176
339.00	0.92520	616.20	0.0016229	-0.62213	-0.60919	-1.7858	164.79	211.79	895.16	-0.030073	204.96	0.10842	0.013703	2.9646	0.33732	25.769	28.458	83.958	152.43	162.99	178.24	3.2546	7.0621	0.017266
340.00	0.95522	615.21	0.0016255	-0.41038	-0.39700	-1.1621	165.13	212.21	890.78	-0.029804	203.22	0.10816	0.013603	3.0551	0.32733	25.911	28.605	84.139	152.87	163.49	178.31	3.2263	7.0820	0.017357
341.00	0.98599	614.22	0.0016281	-0.19822	-0.18439	-0.53892	165.48	212.63	886.40	-0.029534	201.49	0.10790	0.013504	3.1477	0.31769	26.054	28.753	84.321	153.32	163.99	178.38	3.1983	7.1020	0.017447
342.00	1.0175	613.23	0.0016307	0.014355	0.028654	0.083624	165.83	213.06	882.03	-0.029260	199.78	0.10764	0.013404	3.2425	0.30840	26.196	28.901	84.505	153.76	164.49	178.45	3.1708	7.1221	0.017538
343.00	1.0499	612.24	0.0016333	0.22735	0.24212	0.70556	166.17	213.48	877.65	-0.028984	198.09	0.10739	0.013305	3.3396	0.29944	26.340	29.049	84.689	154.21	165.00	178.51	3.1437	7.1421	0.017629
344.00	1.0830	611.24	0.0016360	0.44075	0.45602	1.3269	166.52	213.91	873.28	-0.028706	196.42	0.10713	0.013205	3.4389	0.29079	26.483	29.197	84.875	154.65	165.51	178.57	3.1170	7.1623	0.017720
345.00	1.1169	610.24	0.0016387	0.65458	0.67035	1.9477	166.87	214.33	868.92	-0.028424	194.76	0.10688	0.013106	3.5405	0.28244	26.626	29.345	85.063	155.10	166.01	178.63	3.0907	7.1824	0.017812
346.00	1.1517	609.24	0.0016414	0.86882	0.88511	2.5678	167.22	214.76	864.55	-0.028140	193.13	0.10662	0.013007	3.6445	0.27438	26.770	29.494	85.251	155.54	166.52	178.68	3.0648	7.2027	0.017903
347.00	1.1873	608.24	0.0016441	1.0835	1.1003	3.1874	167.57	215.19	860.19	-0.027853	191.51	0.10637	0.012908	3.7509	0.26660	26.914	29.642	85.441	155.99	167.03	178.73	3.0393	7.2230	0.017995
348.00	1.2237	607.23	0.0016468	1.2986	1.3159	3.8064	167.91	215.63	855.83	-0.027564	189.91	0.10612	0.012809	3.8597	0.25909	27.059	29.791	85.631	156.44	167.55	178.77	3.0141	7.2433	0.018088
349.00	1.2611	606.22	0.0016496	1.5141	1.5320	4.4249	168.26	216.06	851.48	-0.027271	188.32	0.10587	0.012711	3.9709	0.25183	27.203	29.940	85.823	156.89	168.06	178.81	2.9894	7.2638	0.018180
350.00	1.2993	605.21	0.0016523	1.7300	1.7485	5.0428	168.61	216.49	847.12	-0.026975	186.75	0.10562	0.012612	4.0846	0.24482	27.348	30.089	86.016	157.33	168.58	178.84	2.9650	7.2843	0.018273
351.00	1.3383	604.20	0.0016551	1.9463	1.9654	5.6602	168.96	216.93	842.77	-0.026676	185.20	0.10537	0.012514	4.2009	0.23804	27.493	30.239	86.210	157.78	169.10	178.88	2.9410	7.3049	0.018366
352.00	1.3783	603.18	0.0016579	2.1631	2.1828	6.2770	169.32	217.37	838.42	-0.026375	183.66	0.10512	0.012416	4.3198	0.23149	27.638	30.388	86.405	158.23	169.62	178.90	2.9174	7.3256	0.018459
353.00	1.4193	602.16	0.0016607	2.3803	2.4006	6.8932	169.67	217.81	834.07	-0.026070	182.14	0.10487	0.012317	4.4413	0.22516	27.784	30.538	86.602	158.68	170.14	178.93	2.8941	7.3463	0.018552
354.00	1.4611	601.14	0.0016635	2.5979	2.6189	7.5090	170.02	218.25	829.73	-0.025761	180.64	0.10463	0.012219	4.5655	0.21903	27.930	30.688	86.799	159.13	170.66	178.95	2.8712	7.3672	0.018646
355.00	1.5039	600.11	0.0016664	2.8160	2.8376	8.1242	170.37	218.69	825.39	-0.025450	179.15	0.10438	0.012122	4.6924	0.21311	28.076	30.838	86.997	159.58	171.19	178.96	2.8486	7.3882	0.018740
356.00	1.5477	599.08	0.0016692	3.0345	3.0568	8.7389	170.72	219.13	821.04	-0.025135	177.67	0.10414	0.012024	4.8220	0.20738	28.222	30.988	87.197	160.03	171.72	178.97	2.8264	7.4093	0.018834
357.00	1.5924	598.05	0.0016721	3.2534	3.2764	9.3531	171.07	219.58	816.71	-0.024816	176.21	0.10389	0.011926	4.9545	0.20184	28.368	31.138	87.397	160.49	172.25	178.98	2.8045	7.4305	0.018929
358.00	1.6382	597.02	0.0016750	3.4728	3.4964	9.9668	171.43	220.03	812.37	-0.024494	174.76	0.10365	0.011829	5.0897	0.19647	28.515	31.289	87.598	160.94	172.78	178.98	2.7830	7.4519	0.019024
359.00	1.6849	595.98	0.0016779	3.6926	3.7169	10.580	171.78	220.48	808.04	-0.024168	173.33	0.10341	0.011732	5.2279	0.19128	28.662	31.439	87.801	161.39	173.31	178.98	2.7618	7.4734	0.019119
360.00	1.7327	594.94	0.0016808	3.9128	3.9379	11.193	172.13	220.93	803.70	-0.023839	171.91	0.10317	0.011634	5.3690	0.18625	28.809	31.590	88.004	161.84	173.85	178.97	2.7409	7.4950	0.019214
361.00	1.7815	593.90	0.0016838	4.1334	4.1593	11.805	172.49	221.38	799.37	-0.023506	170.51	0.10293	0.011537	5.5131	0.18138	28.956	31.741	88.208	162.29	174.38	178.96	2.7204	7.5168	0.019310
362.00	1.8314	592.85	0.0016868	4.3545	4.3811	12.417	172.84	221.83	795.04	-0.023169	169.12	0.10269	0.011440	5.6603	0.17667	29.104	31.892	88.413	162.75	174.92	178.95	2.7002	7.5387	0.019406
363.00	1.8823	591.80	0.0016898	4.5760	4.6035	13.028	173.20	222.29	790.71	-0.022828	167.74	0.10245	0.011344	5.8105	0.17210	29.251	32.043	88.619	163.20	175.46	178.93	2.6803	7.5608	0.019502
364.00	1.9344	590.75	0.0016928	4.7980	4.8262	13.639	173.55	222.74	786.39	-0.022483	166.38	0.10222	0.011247	5.9638	0.16768	29.399	32.194	88.826	163.65	176.01	178.91	2.6607	7.5831	0.019598
365.00	1.9875	589.69	0.0016958	5.0204	5.0495	14.249	173.91	223.20	782.06	-0.022134	165.03	0.10198	0.011151	6.1204	0.16339	29.547	32.346	89.033	164.11	176.55	178.88	2.6414	7.6055	0.019695
366.00	2.0417	588.63	0.0016989	5.2433	5.2732	14.859	174.26	223.66	777.74	-0.021780	163.69	0.10174	0.011054	6.2801	0.15923	29.696	32.497	89.242	164.56	177.10	178.85	2.6225	7.6282	0.019792
367.00	2.0971	587.57	0.0017019	5.4666	5.4973	15.468	174.62	224.13	773.42	-0.021423	162.37	0.10151	0.010958	6.4431	0.15520	29.844	32.649	89.451	165.02	177.65	178.81	2.6038	7.6510	0.019890
368.00	2.1536	586.50	0.0017050	5.6903	5.7220	16.077	174.97	224.59	769.10	-0.021060	161.06	0.10128	0.010862	6.6095	0.15130	29.993	32.801	89.661	165.47	178.20	178.77	2.5855	7.6741	0.019987
369.00	2.2112	585.43	0.0017081	5.9145	5.9471	16.686	175.33	225.06	764.78	-0.020694	159.76	0.10104	0.010766	6.7792	0.14751	30.142	32.953	89.872	165.93	178.75	178.72	2.5674	7.6973	0.020085
370.00	2.2701	584.36	0.0017113	6.1391	6.1726	17.294	175.68	225.52	760.46	-0.020322	158.47	0.10081	0.010671	6.9524	0.14383	30.291	33.105	90.084	166.38	179.31	178.67	2.5497	7.7209	0.020184
371.00	2.3301	583.28	0.0017144	6.3642	6.3986	17.902	176.04	225.99	756.14	-0.019946	157.19	0.10058	0.010575	7.1291	0.14027	30.441	33.257	90.297	166.84	179.87	178.62	2.5322	7.7446	0.020283
372.00	2.3913	582.20	0.0017176	6.5898	6.6252	18.509	176.40	226.47	751.82	-0.019565	155.93	0.10035	0.010480	7.3093	0.13681	30.590	33.410	90.510	167.29	180.43	178.56	2.5150	7.7686	0.020382
373.00	2.4538	581.11	0.0017208	6.8157	6.8521	19.116	176.75	226.94	747.51	-0.019179	154.67	0.10012	0.010384	7.4931	0.13346	30.740	33.562	90.724	167.75	180.99	178.49	2.4981	7.7928	0.020481
374.00	2.5175	580.03	0.0017241	7.0422	7.0796	19.722	177.11	227.41	743.19	-0.018788	153.43	0.099896	0.010289	7.6806	0.13020	30.890	33.714	90.938	168.21	181.56	178.42	2.4815	7.8174	0.020581
375.00	2.5824	578.93	0.0017273	7.2691	7.3075	20.328	177.47	227.89	738.88	-0.018391	152.20	0.099668	0.010194	7.8718	0.12704	31.040	33.867	91.154	168.66	182.12	178.35	2.4651	7.8421	0.020681
376.00	2.6487	577.84	0.0017306	7.4964	7.5359	20.934	177.82	228.37	734.57	-0.017990	150.98	0.099442	0.010099	8.0667	0.12397	31.190	34.020	91.370	169.12	182.69	178.27	2.4491	7.8672	0.020781
377.00	2.7162	576.74	0.0017339	7.7242	7.7648	21.539	178.18	228.85	730.25	-0.017582	149.77	0.099217	0.010005	8.2655	0.12098	31.341	34.173	91.586	169.58	183.26	178.18	2.4333	7.8926	0.020882
378.00	2.7850	575.64	0.0017372	7.9525	7.9942	22.144	178.54	229.34	725.94	-0.017169	148.57	0.098992	0.0099103	8.4682	0.11809	31.491	34.326	91.804	170.03	183.84	178.09	2.4177	7.9183	0.020983
379.00	2.8551	574.53	0.0017406	8.1812	8.2240	22.748	178.90	229.82	721.63	-0.016751	147.39	0.098768	0.0098160	8.6748	0.11528	31.642	34.479	92.022	170.49	184.42	178.00	2.4025	7.9443	0.021085
380.00	2.9266	573.42	0.0017439	8.4104	8.4544	23.352	179.25	230.31	717.32	-0.016326	146.21	0.098545	0.0097218	8.8855	0.11254	31.793	34.632	92.240	170.95	185.00	177.90	2.3874	7.9707	0.021187
381.00	2.9994	572.30	0.0017473	8.6400	8.6852	23.956	179.61	230.80	713.01	-0.015895	145.04	0.098323	0.0096278	9.1002	0.10989	31.944	34.785	92.459	171.41	185.58	177.79	2.3727	7.9974	0.021289
382.00	3.0736	571.18	0.0017508	8.8701	8.9165	24.560	179.97	231.29	708.69	-0.015458	143.89	0.098102	0.0095339	9.3191	0.10731	32.096	34.938	92.679	171.87	186.17	177.68	2.3582	8.0244	0.021392
383.00	3.1492	570.06	0.0017542	9.1007	9.1483	25.163	180.33	231.79	704.38	-0.015015	142.74	0.097881	0.0094402	9.5421	0.10480	32.247	35.091	92.899	172.32	186.75	177.57	2.3440	8.0518	0.021496
384.00	3.2262	568.93	0.0017577	9.3317	9.3806	25.765	180.69	232.29	700.07	-0.014565	141.60	0.097662	0.0093467	9.7695	0.10236	32.399	35.245	93.120	172.78	187.35	177.45	2.3300	8.0796	0.021599
385.00	3.3046	567.80	0.0017612	9.5633	9.6134	26.368	181.04	232.79	695.76	-0.014108	140.47	0.097443	0.0092533	10.001	0.099988	32.551	35.398	93.341	173.24	187.94	177.32	2.3162	8.1078	0.021703
386.00	3.3845	566.66	0.0017647	9.7952	9.8467	26.970	181.40	233.29	691.45	-0.013644	139.36	0.097225	0.0091601	10.237	0.097682	32.703	35.552	93.563	173.70	188.54	177.19	2.3028	8.1364	0.021808
387.00	3.4657	565.52	0.0017683	10.028	10.081	27.572	181.76	233.80	687.14	-0.013174	138.25	0.097008	0.0090671	10.478	0.095439	32.855	35.705	93.786	174.16	189.14	177.05	2.2895	8.1654	0.021913
388.00	3.5485	564.37	0.0017719	10.261	10.315	28.173	182.12	234.30	682.82	-0.012695	137.15	0.096791	0.0089742	10.723	0.093257	33.007	35.859	94.008	174.62	189.74	176.91	2.2765	8.1948	0.022019
389.00	3.6328	563.22	0.0017755	10.494	10.550	28.774	182.48	234.81	678.51	-0.012210	136.06	0.096575	0.0088815	10.973	0.091135	33.160	36.013	94.232	175.08	190.35	176.76	2.2637	8.2246	0.022125
390.00	3.7185	562.07	0.0017791	10.728	10.785	29.375	182.84	235.33	674.20	-0.011717	134.97	0.096361	0.0087890	11.227	0.089069	33.312	36.166	94.456	175.54	190.96	176.61	2.2512	8.2548	0.022231
391.00	3.8058	560.91	0.0017828	10.962	11.021	29.975	183.20	235.84	669.88	-0.011215	133.90	0.096146	0.0086966	11.486	0.087059	33.465	36.320	94.680	176.00	191.57	176.45	2.2389	8.2856	0.022338
392.00	3.8946	559.74	0.0017865	11.197	11.257	30.575	183.56	236.36	665.57	-0.010706	132.84	0.095933	0.0086045	11.751	0.085102	33.618	36.474	94.904	176.46	192.19	176.28	2.2268	8.3167	0.022446
393.00	3.9850	558.57	0.0017903	11.432	11.494	31.175	183.91	236.89	661.25	-0.010188	131.78	0.095720	0.0085124	12.020	0.083197	33.771	36.628	95.129	176.92	192.81	176.11	2.2149	8.3484	0.022554
394.00	4.0770	557.40	0.0017940	11.668	11.731	31.775	184.27	237.41	656.93	-0.0096619	130.73	0.095509	0.0084206	12.294	0.081343	33.924	36.782	95.355	177.38	193.44	175.94	2.2033	8.3805	0.022663
395.00	4.1705	556.22	0.0017979	11.905	11.969	32.374	184.63	237.94	652.62	-0.0091268	129.69	0.095298	0.0083289	12.573	0.079537	34.077	36.936	95.581	177.85	194.07	175.75	2.1919	8.4131	0.022772
396.00	4.2657	555.03	0.0018017	12.141	12.208	32.973	184.99	238.47	648.30	-0.0085825	128.66	0.095087	0.0082375	12.857	0.077778	34.231	37.090	95.807	178.31	194.70	175.57	2.1807	8.4462	0.022882
397.00	4.3625	553.84	0.0018056	12.379	12.447	33.572	185.35	239.01	643.98	-0.0080290	127.64	0.094878	0.0081462	13.147	0.076065	34.384	37.244	96.033	178.77	195.33	175.37	2.1698	8.4798	0.022992
398.00	4.4609	552.65	0.0018095	12.616	12.686	34.171	185.71	239.54	639.65	-0.0074658	126.63	0.094669	0.0080550	13.442	0.074396	34.538	37.398	96.260	179.23	195.98	175.17	2.1590	8.5139	0.023103
399.00	4.5610	551.45	0.0018134	12.855	12.926	34.769	186.07	240.09	635.33	-0.0068927	125.62	0.094461	0.0079641	13.742	0.072770	34.691	37.552	96.487	179.69	196.62	174.97	2.1485	8.5485	0.023215
400.00	4.6628	550.24	0.0018174	13.093	13.166	35.367	186.43	240.63	631.01	-0.0063094	124.62	0.094253	0.0078733	14.048	0.071185	34.845	37.706	96.715	180.16	197.27	174.75	2.1382	8.5837	0.023327
401.00	4.7662	549.03	0.0018214	13.333	13.408	35.965	186.79	241.18	626.68	-0.0057156	123.63	0.094047	0.0077828	14.359	0.069641	34.999	37.860	96.942	180.62	197.92	174.54	2.1281	8.6194	0.023440
402.00	4.8714	547.81	0.0018254	13.572	13.649	36.562	187.15	241.73	622.35	-0.0051110	122.64	0.093841	0.0076924	14.677	0.068135	35.153	38.014	97.170	181.09	198.58	174.31	2.1182	8.6556	0.023554
403.00	4.9784	546.59	0.0018295	13.813	13.891	37.160	187.51	242.29	618.02	-0.0044953	121.66	0.093635	0.0076022	15.000	0.066668	35.307	38.167	97.399	181.55	199.25	174.08	2.1085	8.6924	0.023669
404.00	5.0871	545.36	0.0018336	14.054	14.134	37.757	187.87	242.85	613.69	-0.0038682	120.69	0.093431	0.0075122	15.329	0.065237	35.462	38.321	97.627	182.01	199.91	173.84	2.0990	8.7297	0.023784
405.00	5.1975	544.13	0.0018378	14.295	14.377	38.354	188.23	243.41	609.35	-0.0032292	119.73	0.093227	0.0074224	15.664	0.063842	35.616	38.475	97.856	182.48	200.59	173.60	2.0897	8.7676	0.023900
406.00	5.3098	542.88	0.0018420	14.537	14.621	38.951	188.59	243.98	605.02	-0.0025780	118.77	0.093024	0.0073327	16.005	0.062481	35.770	38.629	98.085	182.94	201.26	173.35	2.0807	8.8061	0.024016
407.00	5.4239	541.64	0.0018463	14.779	14.865	39.547	188.95	244.56	600.68	-0.0019143	117.82	0.092821	0.0072433	16.352	0.061154	35.925	38.783	98.314	183.41	201.95	173.09	2.0718	8.8451	0.024134
408.00	5.5398	540.38	0.0018505	15.022	15.110	40.144	189.31	245.14	596.34	-0.0012376	116.88	0.092619	0.0071541	16.706	0.059859	36.079	38.937	98.543	183.87	202.64	172.82	2.0632	8.8847	0.024252
409.00	5.6575	539.12	0.0018549	15.265	15.356	40.740	189.68	245.72	591.99	-0.00054757	115.94	0.092418	0.0070651	17.066	0.058596	36.234	39.091	98.772	184.34	203.33	172.55	2.0547	8.9249	0.024371
410.00	5.7771	537.86	0.0018592	15.509	15.602	41.336	190.04	246.31	587.64	0.00015628	115.01	0.092218	0.0069762	17.433	0.057363	36.389	39.244	99.001	184.80	204.03	172.28	2.0465	8.9657	0.024491
411.00	5.8987	536.58	0.0018636	15.753	15.848	41.932	190.40	246.90	583.29	0.00087437	114.09	0.092018	0.0068876	17.806	0.056160	36.543	39.398	99.231	185.27	204.73	171.99	2.0385	9.0070	0.024612
412.00	6.0221	535.30	0.0018681	15.998	16.095	42.528	190.76	247.50	578.94	0.0016072	113.17	0.091819	0.0067992	18.186	0.054986	36.698	39.552	99.461	185.73	205.44	171.70	2.0307	9.0489	0.024733
413.00	6.1474	534.02	0.0018726	16.244	16.343	43.124	191.12	248.10	574.59	0.0023552	112.26	0.091620	0.0067109	18.574	0.053840	36.853	39.705	99.690	186.19	206.16	171.40	2.0231	9.0915	0.024856
414.00	6.2747	532.72	0.0018771	16.490	16.591	43.719	191.48	248.71	570.23	0.0031189	111.36	0.091422	0.0066229	18.968	0.052721	37.008	39.859	99.920	186.66	206.88	171.09	2.0157	9.1346	0.024980
415.00	6.4040	531.42	0.0018817	16.736	16.840	44.315	191.84	249.32	565.86	0.0038989	110.46	0.091225	0.0065351	19.369	0.051628	37.163	40.012	100.15	187.12	207.60	170.78	2.0085	9.1783	0.025104
416.00	6.5352	530.12	0.0018864	16.984	17.090	44.910	192.20	249.94	561.50	0.0046956	109.57	0.091028	0.0064475	19.778	0.050561	37.318	40.165	100.38	187.58	208.34	170.46	2.0015	9.2226	0.025230
417.00	6.6684	528.80	0.0018911	17.231	17.340	45.505	192.57	250.57	557.13	0.0055097	108.68	0.090832	0.0063601	20.194	0.049519	37.473	40.318	100.61	188.04	209.08	170.13	1.9948	9.2676	0.025357
418.00	6.8037	527.48	0.0018958	17.479	17.591	46.100	192.93	251.20	552.75	0.0063418	107.80	0.090637	0.0062730	20.618	0.048501	37.628	40.471	100.84	188.50	209.82	169.79	1.9883	9.3131	0.025485
419.00	6.9410	526.15	0.0019006	17.728	17.842	46.695	193.29	251.84	548.37	0.0071926	106.93	0.090442	0.0061860	21.050	0.047507	37.783	40.624	101.07	188.96	210.57	169.45	1.9820	9.3593	0.025614
420.00	7.0804	524.81	0.0019055	17.977	18.094	47.290	193.65	252.48	543.99	0.0080625	106.06	0.090248	0.0060993	21.489	0.046535	37.938	40.777	101.30	189.42	211.33	169.10	1.9759	9.4060	0.025744
421.00	7.2219	523.46	0.0019104	18.227	18.346	47.885	194.01	253.13	539.60	0.0089525	105.19	0.090054	0.0060128	21.937	0.045586	38.093	40.930	101.53	189.88	212.10	168.74	1.9700	9.4534	0.025875
422.00	7.3655	522.11	0.0019153	18.478	18.599	48.480	194.38	253.79	535.21	0.0098632	104.33	0.089861	0.0059265	22.392	0.044658	38.248	41.082	101.76	190.34	212.87	168.37	1.9644	9.5014	0.026008
423.00	7.5112	520.74	0.0019203	18.729	18.853	49.075	194.74	254.46	530.81	0.010795	103.48	0.089669	0.0058404	22.856	0.043751	38.402	41.234	101.99	190.79	213.65	167.99	1.9590	9.5499	0.026141
424.00	7.6590	519.37	0.0019254	18.980	19.108	49.670	195.10	255.14	526.41	0.011750	102.63	0.089477	0.0057546	23.329	0.042865	38.557	41.387	102.21	191.24	214.44	167.61	1.9539	9.5992	0.026277
425.00	7.8091	517.99	0.0019305	19.233	19.363	50.265	195.46	255.82	522.00	0.012727	101.78	0.089285	0.0056690	23.811	0.041998	38.712	41.538	102.44	191.70	215.24	167.22	1.9490	9.6490	0.026413
426.00	7.9613	516.60	0.0019357	19.485	19.618	50.860	195.83	256.51	517.58	0.013729	100.95	0.089095	0.0055836	24.301	0.041151	38.867	41.690	102.67	192.15	216.04	166.82	1.9444	9.6994	0.026551
427.00	8.1157	515.20	0.0019410	19.739	19.874	51.455	196.19	257.21	513.16	0.014755	100.11	0.088904	0.0054985	24.800	0.040322	39.022	41.842	102.90	192.60	216.86	166.41	1.9399	9.7505	0.026690
428.00	8.2724	513.80	0.0019463	19.993	20.131	52.049	196.55	257.92	508.74	0.015807	99.282	0.088715	0.0054136	25.309	0.039512	39.176	41.993	103.13	193.05	217.68	165.99	1.9358	9.8022	0.026831
429.00	8.4313	512.38	0.0019517	20.247	20.389	52.644	196.91	258.63	504.31	0.016886	98.457	0.088525	0.0053289	25.827	0.038719	39.331	42.144	103.36	193.49	218.51	165.57	1.9319	9.8546	0.026974
430.00	8.5925	510.95	0.0019571	20.502	20.647	53.239	197.28	259.36	499.87	0.017993	97.637	0.088337	0.0052445	26.355	0.037943	39.485	42.295	103.58	193.94	219.36	165.13	1.9283	9.9076	0.027118
431.00	8.7560	509.52	0.0019626	20.758	20.906	53.834	197.64	260.10	495.42	0.019130	96.822	0.088148	0.0051603	26.893	0.037185	39.640	42.446	103.81	194.39	220.21	164.69	1.9249	9.9612	0.027263
432.00	8.9218	508.07	0.0019682	21.015	21.166	54.430	198.01	260.85	490.96	0.020296	96.010	0.087961	0.0050764	27.441	0.036442	39.794	42.596	104.04	194.83	221.08	164.23	1.9218	10.015	0.027411
433.00	9.0899	506.61	0.0019739	21.272	21.426	55.025	198.37	261.60	486.50	0.021494	95.203	0.087773	0.0049928	27.999	0.035716	39.948	42.746	104.26	195.28	221.96	163.77	1.9189	10.070	0.027560
434.00	9.2605	505.14	0.0019796	21.529	21.687	55.620	198.73	262.37	482.03	0.022725	94.400	0.087587	0.0049093	28.568	0.035005	40.102	42.895	104.49	195.72	222.86	163.30	1.9164	10.126	0.027711
435.00	9.4334	503.67	0.0019854	21.787	21.949	56.216	199.10	263.16	477.55	0.023990	93.601	0.087400	0.0048262	29.147	0.034308	40.256	43.045	104.71	196.16	223.77	162.82	1.9141	10.182	0.027864
436.00	9.6087	502.18	0.0019913	22.046	22.211	56.811	199.46	263.95	473.06	0.025291	92.806	0.087214	0.0047433	29.738	0.033627	40.409	43.194	104.94	196.61	224.69	162.33	1.9120	10.239	0.028019
437.00	9.7864	500.67	0.0019973	22.306	22.474	57.407	199.83	264.75	468.57	0.026629	92.015	0.087029	0.0046607	30.340	0.032960	40.563	43.343	105.16	197.05	225.64	161.83	1.9103	10.297	0.028175
438.00	9.9666	499.16	0.0020034	22.566	22.738	58.003	200.19	265.57	464.06	0.028005	91.228	0.086844	0.0045783	30.954	0.032306	40.716	43.491	105.38	197.49	226.60	161.32	1.9088	10.355	0.028335
439.00	10.149	497.64	0.0020095	22.827	23.003	58.599	200.55	266.41	459.54	0.029423	90.444	0.086660	0.0044962	31.579	0.031667	40.869	43.639	105.61	197.94	227.57	160.80	1.9076	10.414	0.028496
440.00	10.334	496.10	0.0020157	23.089	23.268	59.196	200.92	267.25	455.01	0.030882	89.664	0.086475	0.0044144	32.217	0.031040	41.022	43.786	105.83	198.39	228.57	160.27	1.9067	10.473	0.028659
441.00	10.522	494.55	0.0020220	23.351	23.534	59.793	201.29	268.12	450.47	0.032386	88.887	0.086292	0.0043328	32.867	0.030426	41.174	43.933	106.05	198.83	229.59	159.73	1.9061	10.534	0.028825
442.00	10.712	492.99	0.0020285	23.614	23.801	60.389	201.65	268.99	445.92	0.033937	88.114	0.086108	0.0042516	33.529	0.029825	41.327	44.080	106.27	199.28	230.63	159.18	1.9058	10.595	0.028994
443.00	10.905	491.41	0.0020350	23.878	24.069	60.987	202.02	269.89	441.35	0.035535	87.344	0.085926	0.0041706	34.205	0.029235	41.479	44.226	106.49	199.73	231.70	158.62	1.9057	10.657	0.029165
444.00	11.101	489.82	0.0020416	24.142	24.337	61.584	202.38	270.80	436.78	0.037185	86.577	0.085743	0.0040899	34.894	0.028658	41.631	44.372	106.71	200.19	232.79	158.05	1.9059	10.719	0.029338
445.00	11.299	488.22	0.0020483	24.407	24.606	62.182	202.75	271.73	432.19	0.038887	85.813	0.085561	0.0040095	35.597	0.028092	41.782	44.517	106.93	200.64	233.91	157.47	1.9065	10.782	0.029514
446.00	11.499	486.60	0.0020551	24.673	24.876	62.780	203.12	272.67	427.58	0.040645	85.052	0.085379	0.0039294	36.315	0.027537	41.933	44.662	107.14	201.10	235.06	156.87	1.9073	10.847	0.029694
447.00	11.703	484.97	0.0020620	24.939	25.147	63.379	203.49	273.64	422.97	0.042462	84.294	0.085198	0.0038496	37.046	0.026993	42.084	44.806	107.36	201.56	236.24	156.27	1.9084	10.911	0.029876
448.00	11.909	483.32	0.0020690	25.207	25.419	63.978	203.85	274.63	418.33	0.044340	83.539	0.085017	0.0037701	37.793	0.026460	42.234	44.950	107.57	202.03	237.45	155.65	1.9098	10.977	0.030061
449.00	12.118	481.65	0.0020762	25.475	25.691	64.577	204.22	275.64	413.69	0.046282	82.786	0.084836	0.0036909	38.554	0.025937	42.385	45.093	107.79	202.50	238.69	155.02	1.9114	11.044	0.030250
450.00	12.329	479.97	0.0020834	25.744	25.965	65.177	204.59	276.67	409.02	0.048292	82.036	0.084655	0.0036121	39.332	0.025425	42.534	45.236	108.00	202.97	239.97	154.38	1.9134	11.111	0.030442
451.00	12.543	478.28	0.0020908	26.013	26.239	65.777	204.97	277.72	404.34	0.050373	81.288	0.084475	0.0035335	40.126	0.024922	42.684	45.377	108.21	203.45	241.29	153.73	1.9157	11.179	0.030637
452.00	12.761	476.56	0.0020984	26.284	26.514	66.378	205.34	278.80	399.64	0.052528	80.543	0.084296	0.0034553	40.936	0.024428	42.832	45.519	108.42	203.94	242.65	153.07	1.9183	11.248	0.030836
453.00	12.980	474.83	0.0021060	26.555	26.790	66.979	205.71	279.91	394.93	0.054763	79.799	0.084116	0.0033774	41.763	0.023945	42.981	45.659	108.63	204.42	244.05	152.39	1.9211	11.318	0.031039
454.00	13.203	473.08	0.0021138	26.827	27.067	67.581	206.09	281.04	390.19	0.057080	79.058	0.083937	0.0032998	42.608	0.023470	43.129	45.799	108.84	204.92	245.49	151.71	1.9243	11.389	0.031246
455.00	13.429	471.31	0.0021217	27.100	27.345	68.183	206.46	282.20	385.44	0.059485	78.318	0.083758	0.0032226	43.471	0.023004	43.276	45.938	109.05	205.42	246.99	151.00	1.9278	11.461	0.031457
456.00	13.657	469.53	0.0021298	27.373	27.624	68.786	206.84	283.39	380.67	0.061982	77.581	0.083579	0.0031457	44.353	0.022546	43.423	46.077	109.25	205.92	248.53	150.29	1.9316	11.534	0.031672
457.00	13.889	467.72	0.0021380	27.648	27.904	69.390	207.22	284.62	375.87	0.064577	76.845	0.083401	0.0030692	45.254	0.022097	43.570	46.215	109.46	206.44	250.13	149.56	1.9357	11.609	0.031892
458.00	14.123	465.89	0.0021464	27.924	28.185	69.994	207.60	285.88	371.06	0.067275	76.111	0.083223	0.0029930	46.175	0.021657	43.716	46.352	109.66	206.95	251.78	148.82	1.9401	11.684	0.032117
459.00	14.361	464.04	0.0021550	28.200	28.467	70.599	207.99	287.18	366.23	0.070082	75.378	0.083045	0.0029172	47.117	0.021224	43.861	46.488	109.86	207.48	253.49	148.07	1.9449	11.760	0.032347
460.00	14.601	462.17	0.0021637	28.477	28.750	71.205	208.38	288.51	361.37	0.073006	74.646	0.082868	0.0028417	48.080	0.020799	44.006	46.623	110.06	208.01	255.26	147.30	1.9500	11.837	0.032581
461.00	14.845	460.27	0.0021726	28.756	29.033	71.812	208.76	289.89	356.49	0.076051	73.916	0.082691	0.0027666	49.065	0.020381	44.150	46.757	110.26	208.54	257.10	146.52	1.9554	11.916	0.032822
462.00	15.091	458.36	0.0021817	29.035	29.318	72.420	209.16	291.31	351.59	0.079228	73.186	0.082514	0.0026919	50.072	0.019971	44.294	46.891	110.46	209.09	259.01	145.72	1.9612	11.996	0.033068
463.00	15.341	456.41	0.0021910	29.315	29.605	73.028	209.55	292.77	346.66	0.082543	72.457	0.082337	0.0026176	51.103	0.019568	44.436	47.023	110.65	209.63	260.99	144.91	1.9673	12.077	0.033320
464.00	15.594	454.44	0.0022005	29.596	29.892	73.638	209.95	294.29	341.71	0.086005	71.730	0.082161	0.0025437	52.159	0.019172	44.579	47.155	110.84	210.19	263.06	144.08	1.9738	12.160	0.033578
465.00	15.850	452.45	0.0022102	29.878	30.180	74.248	210.35	295.86	336.74	0.089625	71.002	0.081985	0.0024702	53.240	0.018783	44.720	47.285	111.03	210.75	265.20	143.23	1.9806	12.244	0.033843
466.00	16.109	450.43	0.0022201	30.162	30.470	74.860	210.76	297.48	331.74	0.093412	70.275	0.081809	0.0023972	54.347	0.018400	44.860	47.415	111.22	211.32	267.44	142.37	1.9879	12.329	0.034114
467.00	16.371	448.38	0.0022303	30.446	30.761	75.472	211.17	299.17	326.71	0.097379	69.548	0.081634	0.0023245	55.481	0.018024	45.000	47.543	111.41	211.90	269.78	141.50	1.9956	12.416	0.034393
468.00	16.637	446.30	0.0022407	30.732	31.053	76.086	211.59	300.92	321.66	0.10154	68.822	0.081459	0.0022523	56.644	0.017654	45.139	47.670	111.59	212.48	272.22	140.61	2.0036	12.505	0.034680
469.00	16.906	444.19	0.0022513	31.018	31.346	76.701	212.01	302.75	316.58	0.10590	68.095	0.081284	0.0021805	57.836	0.017290	45.277	47.796	111.77	213.07	274.76	139.70	2.0121	12.595	0.034975
470.00	17.178	442.04	0.0022622	31.306	31.641	77.318	212.44	304.65	311.47	0.11049	67.368	0.081110	0.0021091	59.059	0.016932	45.414	47.920	111.95	213.66	277.43	138.77	2.0211	12.688	0.035278
471.00	17.454	439.87	0.0022734	31.595	31.937	77.936	212.87	306.63	306.33	0.11531	66.640	0.080936	0.0020383	60.314	0.016580	45.550	48.043	112.13	214.26	280.23	137.82	2.0305	12.782	0.035591
472.00	17.733	437.66	0.0022849	31.886	32.235	78.555	213.31	308.70	301.16	0.12038	65.912	0.080763	0.0019678	61.603	0.016233	45.684	48.165	112.31	214.87	283.17	136.86	2.0404	12.878	0.035913
473.00	18.015	435.41	0.0022967	32.177	32.534	79.176	213.75	310.87	295.97	0.12574	65.182	0.080590	0.0018979	62.927	0.015892	45.818	48.285	112.48	215.49	286.26	135.88	2.0507	12.976	0.036245
474.00	18.301	433.12	0.0023088	32.470	32.834	79.799	214.20	313.14	290.74	0.13139	64.452	0.080418	0.0018285	64.287	0.015555	45.950	48.404	112.65	216.11	289.51	134.88	2.0616	13.076	0.036587
475.00	18.591	430.80	0.0023213	32.764	33.136	80.423	214.66	315.53	285.48	0.13736	63.720	0.080246	0.0017596	65.686	0.015224	46.082	48.521	112.81	216.73	292.94	133.86	2.0731	13.179	0.036942
476.00	18.884	428.43	0.0023341	33.060	33.440	81.050	215.13	318.04	280.18	0.14368	62.986	0.080075	0.0016912	67.126	0.014897	46.211	48.636	112.97	217.37	296.56	132.82	2.0851	13.284	0.037308
477.00	19.181	426.02	0.0023473	33.358	33.746	81.678	215.61	320.69	274.86	0.15038	62.250	0.079905	0.0016233	68.608	0.014576	46.340	48.749	113.13	218.01	300.41	131.75	2.0977	13.392	0.037687
478.00	19.481	423.56	0.0023609	33.656	34.053	82.309	216.09	323.50	269.49	0.15750	61.512	0.079736	0.0015560	70.134	0.014258	46.467	48.860	113.29	218.66	304.48	130.67	2.1109	13.502	0.038080
479.00	19.785	421.05	0.0023750	33.957	34.362	82.942	216.59	326.47	264.10	0.16507	60.771	0.079568	0.0014892	71.708	0.013945	46.592	48.970	113.44	219.31	308.82	129.56	2.1248	13.615	0.038488
480.00	20.093	418.49	0.0023895	34.259	34.673	83.577	217.10	329.62	258.66	0.17313	60.027	0.079401	0.0014230	73.332	0.013637	46.715	49.077	113.59	219.97	313.45	128.44	2.1393	13.732	0.038911
481.00	20.404	415.88	0.0024045	34.563	34.986	84.215	217.61	332.98	253.19	0.18174	59.279	0.079236	0.0013575	75.009	0.013332	46.837	49.181	113.73	220.64	318.39	127.28	2.1546	13.852	0.039351
482.00	20.720	413.21	0.0024201	34.869	35.301	84.856	218.14	336.57	247.68	0.19095	58.528	0.079072	0.0012925	76.742	0.013031	46.957	49.283	113.87	221.32	323.70	126.11	2.1706	13.975	0.039810
483.00	21.039	410.48	0.0024362	35.176	35.618	85.500	218.69	340.42	242.13	0.20083	57.773	0.078910	0.0012282	78.535	0.012733	47.074	49.383	114.00	222.01	329.41	124.91	2.1873	14.103	0.040288
484.00	21.362	407.68	0.0024529	35.486	35.938	86.147	219.24	344.56	236.53	0.21144	57.012	0.078751	0.0011646	80.392	0.012439	47.189	49.479	114.12	222.70	335.58	123.68	2.2049	14.234	0.040787
485.00	21.689	404.81	0.0024703	35.798	36.260	86.797	219.81	349.03	230.89	0.22287	56.246	0.078594	0.0011016	82.316	0.012148	47.302	49.573	114.25	223.41	342.26	122.43	2.2233	14.370	0.041310
486.00	22.020	401.87	0.0024884	36.112	36.585	87.452	220.40	353.87	225.20	0.23521	55.474	0.078440	0.0010394	84.315	0.011860	47.412	49.663	114.36	224.12	349.53	121.15	2.2426	14.511	0.041858
487.00	22.355	398.84	0.0025072	36.429	36.912	88.110	221.01	359.14	219.47	0.24859	54.696	0.078290	0.00097786	86.392	0.011575	47.519	49.749	114.47	224.84	357.48	119.84	2.2628	14.658	0.042433
488.00	22.695	395.74	0.0025269	36.749	37.243	88.773	221.63	364.91	213.68	0.26311	53.909	0.078144	0.00091713	88.554	0.011293	47.623	49.832	114.57	225.58	366.21	118.50	2.2840	14.810	0.043038
489.00	23.038	392.53	0.0025476	37.071	37.577	89.441	222.27	371.25	207.84	0.27895	53.114	0.078004	0.00085720	90.808	0.011012	47.724	49.910	114.66	226.33	375.85	117.13	2.3062	14.968	0.043676
490.00	23.386	389.23	0.0025692	37.396	37.914	90.114	222.94	378.26	201.94	0.29627	52.310	0.077871	0.00079812	93.163	0.010734	47.821	49.984	114.75	227.10	386.55	115.73	2.3293	15.133	0.044351
491.00	23.739	385.81	0.0025919	37.724	38.255	90.793	223.63	386.07	195.99	0.31529	51.495	0.077745	0.00073993	95.628	0.010457	47.914	50.053	114.82	227.88	398.51	114.30	2.3535	15.306	0.045067
492.00	24.095	382.27	0.0026159	38.057	38.600	91.479	224.35	394.83	189.96	0.33628	50.668	0.077629	0.00068266	98.214	0.010182	48.002	50.116	114.89	228.67	411.97	112.83	2.3788	15.488	0.045829
493.00	24.457	378.60	0.0026413	38.393	38.949	92.172	225.10	404.74	183.87	0.35953	49.827	0.077524	0.00062638	100.93	0.0099074	48.085	50.173	114.94	229.49	427.25	111.33	2.4051	15.679	0.046643
494.00	24.823	374.78	0.0026682	38.733	39.304	92.873	225.88	416.05	177.71	0.38542	48.970	0.077435	0.00057113	103.80	0.0096335	48.162	50.223	114.98	230.33	444.75	109.79	2.4325	15.881	0.047516
495.00	25.193	370.79	0.0026969	39.078	39.663	93.583	226.70	429.11	171.47	0.41443	48.096	0.077364	0.00051699	106.84	0.0093596	48.233	50.265	115.00	231.20	465.01	108.22	2.4609	16.095	0.048457
496.00	25.569	366.61	0.0027277	39.428	40.029	94.304	227.56	444.36	165.14	0.44713	47.201	0.077318	0.00046402	110.07	0.0090851	48.297	50.299	115.01	232.10	488.74	106.60	2.4901	16.324	0.049477
497.00	25.949	362.22	0.0027607	39.785	40.402	95.037	228.47	462.45	158.72	0.48424	46.282	0.077302	0.00041231	113.52	0.0088094	48.352	50.322	115.00	233.03	516.93	104.94	2.5202	16.568	0.050590
498.00	26.335	357.58	0.0027966	40.148	40.783	95.784	229.44	484.28	152.20	0.52672	45.334	0.077327	0.00036197	117.21	0.0085314	48.398	50.334	114.96	234.01	551.00	103.24	2.5508	16.832	0.051815
499.00	26.725	352.64	0.0028357	40.520	41.173	96.548	230.48	511.19	145.56	0.57575	44.353	0.077406	0.00031310	121.21	0.0082502	48.433	50.333	114.90	235.03	592.98	101.49	2.5815	17.119	0.053177
500.00	27.122	347.36	0.0028789	40.902	41.575	97.332	231.59	545.21	138.81	0.63296	43.331	0.077558	0.00026587	125.56	0.0079642	48.453	50.315	114.81	236.12	646.02	99.700	2.6119	17.434	0.054709
